File: Battery1/Input/66824_QC.txt
RBG_CYC_66824_Nw_c0_41V_40C_C10C10_170627_622BNG_VC211_100DOD_127 (155723 Points)
Cycle Number	Capacity (mAh)
1	0
2	127.3
3	2.3
3	113.9
4	190.9
5	46.9
5	174.2
6	30.1
7	107.2
7	214.1
8	93.8
9	177.6
10	40.2
10	170.8
11	36.9
12	117.3
13	0.9
13	110.5
14	190.9
15	57
15	187.6
16	53.6
17	137.3
18	6.7
18	130.7
19	211.1
20	73.7
20	201
21	70.3
22	150.8
23	13.4
23	144.1
24	6.7
25	87.1
25	207.4
26	80.4
27	160.8
28	23.4
28	154.1
29	20.1
30	103.8
30	210.6
31	97.2
32	177.6
33	43.5
33	177.6
34	46.9
35	130.7
36	6.7
36	134
37	3.4
38	87.1
38	207
39	90.5
40	174.2
41	43.5
41	177.6
42	46.9
43	130.7
44	6.7
44	134
45	6.7
46	93.8
46	208.6
47	100.5
48	184.3
49	53.6
49	187.6
50	57
51	140.7
52	12.7
52	144.1
53	13.4
54	97.2
54	208.5
55	100.5
56	184.3
57	53.6
57	187.6
58	57
59	140.7
60	12.7
60	144.1
61	13.4
62	97.2
62	207.7
63	100.5
64	184.3
65	53.6
65	187.7
66	57
67	140.7
68	13.4
68	147.4
69	16.8
70	100.5
70	207.4
71	103.8
72	187.6
73	60.3
73	194.3
74	73.7
75	160.8
76	36.9
76	174.2
77	50.3
78	137.3
79	13.4
79	150.8
80	26.8
81	113.9
82	3.4
82	127.3
83	3.4
84	90.5
84	206.2
85	103.8
86	190.9
87	67
87	197.7
88	80.4
89	167.5
90	43.5
90	180.9
91	60.3
92	150.8
93	30.1
93	167.5
94	46.9
95	137.3
96	16.8
96	154.1
97	30.1
98	120.6
99	6.1
99	134
100	10.1
101	97.2
102	0
102	110.5
103	197.7
104	73.7
104	200.9
105	90.5
106	177.6
107	53.6
107	190.9
108	67
109	154.1
110	30.1
110	167.5
111	43.5
112	130.7
113	10.1
113	144.1
114	20.1
115	107.2
116	1.7
116	120.6
117	204.6
118	83.8
118	203.2
119	97.2
120	184.3
121	63.6
121	194.3
122	77
123	164.2
124	40.2
124	177.6
125	53.6
126	140.7
127	16.8
127	154.1
128	30.1
129	117.3
130	4.6
130	130.7
131	6.7
132	93.8
133	0.4
133	117.3
134	0
135	90.5
136	0
136	113.9
137	203.7
138	87.1
138	203.6
139	110.5
140	201
141	83.8
141	202.9
142	107.2
143	197.7
144	80.4
144	202
145	103.8
146	194.3
147	77
147	201
148	100.5
149	190.9
150	73.7
150	200.3
151	97.2
152	187.6
153	70.3
153	199.1
154	97.2
155	187.6
156	73.7
156	200.2
157	100.5
158	194.3
159	80.4
159	201
160	103.8
161	194.3
162	80.4
162	201
163	103.8
164	194.3
165	77
165	200.1
166	100.5
167	190.9
168	73.7
168	199
169	97.2
170	187.6
171	70.3
171	197.7
172	97.2
173	187.6
174	73.7
174	198.9
175	97.2
176	187.6
177	70.3
177	197.7
178	93.8
179	184.3
180	67
180	197.4
181	90.5
182	180.9
183	63.6
183	196
184	87.1
185	177.6
186	60.3
186	194.3
187	83.8
188	174.2
189	60.3
189	193
190	83.8
191	177.6
192	60.3
192	193
193	83.8
194	174.2
195	57
195	190.9
196	80.4
197	170.8
198	53.6
198	190.1
199	80.4
200	174.2
201	60.3
201	194.3
202	93.8
203	187.6
204	77
204	199.7
205	110.5
206	0
207	93.8
208	1.7
208	127.3
209	16.8
210	110.5
211	6.7
211	144.1
212	33.5
213	127.3
214	16.8
214	160.8
215	50.3
216	144.1
217	33.5
217	177.6
218	67
219	160.8
220	50.3
220	190
221	83.8
222	177.6
223	67
223	197
224	100.5
225	194.3
226	83.8
227	0
227	117.3
228	6.7
229	100.5
230	4.6
230	137.3
231	30.1
232	127.3
233	20.1
233	164.2
234	57
235	154.1
236	46.9
236	187.6
237	83.8
238	177.6
239	67
239	196.9
240	103.8
241	199.1
242	93.8
243	1.7
243	127.3
244	16.8
245	110.5
246	6.7
246	144.1
247	33.5
248	127.3
249	16.8
249	160.8
250	50.3
251	144.1
252	33.5
252	177.6
253	67
254	164.2
255	57
255	192.7
256	90.5
257	184.3
258	73.7
258	197.6
259	107.2
260	198.3
261	90.5
262	1
262	124
263	13.4
264	107.2
265	6.1
265	140.7
266	30.1
267	124
268	13.4
268	157.4
269	46.9
270	140.7
271	30.1
271	174.2
272	67
273	160.8
274	50.3
274	189.7
275	87.1
276	180.9
277	70.3
277	195.5
278	103.8
279	197.4
280	87.1
281	0.4
281	120.6
282	10.1
283	103.8
284	6.1
284	144.1
285	33.5
286	130.7
287	26.8
287	174.2
288	70.3
289	167.5
290	63.6
290	194.3
291	107.2
292	3.4
293	100.5
294	6.1
294	144.1
295	40.2
296	137.3
297	33.5
297	180.9
298	77
299	174.2
300	70.3
300	196.3
301	113.9
302	10.1
303	107.2
304	8.6
304	150.8
305	46.9
306	144.1
307	40.2
307	184.3
308	83.8
309	180.9
310	77
311	0
311	120.6
312	16.8
313	113.9
314	12.6
314	157.4
315	53.6
316	150.8
317	46.9
317	187.6
318	90.5
319	187.6
320	83.8
321	1.7
321	130.7
322	26.8
323	127.3
324	26.8
324	174.2
325	73.7
326	174.2
327	73.7
328	0
328	120.6
329	20.1
330	120.6
331	16.8
331	164.2
332	63.6
333	164.2
334	63.6
334	193.5
335	107.2
336	3.4
337	100.5
338	6.1
338	144.1
339	40.2
340	137.3
341	33.5
341	180.9
342	77
343	174.2
344	70.3
344	195.1
345	113.9
346	13.4
347	113.9
348	13.4
348	160.8
349	57
350	157.4
351	53.6
351	190.8
352	97.2
353	194.3
354	90.5
355	2.6
355	134
356	30.1
357	127.3
358	23.4
358	170.8
359	67
360	164.2
361	60.3
361	192.1
362	103.8
363	0
364	97.2
365	4.6
365	140.7
366	36.9
367	134
368	30.1
368	177.6
369	73.7
370	170.8
371	67
371	193.1
372	110.5
373	6.7
374	103.8
375	6.7
375	147.4
376	43.5
377	140.7
378	36.9
378	180.9
379	80.4
380	177.6
381	73.7
382	0
382	120.6
383	16.8
384	113.9
385	16.8
385	167.5
386	70.3
387	170.8
388	73.7
389	0.4
389	127.3
390	30.1
391	130.7
392	33.5
392	180.9
393	87.1
394	187.6
395	90.5
396	4.6
396	144.1
397	46.9
398	147.4
399	50.3
399	189.1
400	103.8
401	6.7
402	107.2
403	12.6
403	160.8
404	63.6
405	164.2
406	67
406	193.1
407	120.6
408	23.4
409	124
410	23.4
410	170.8
411	70.3
412	170.8
413	73.7
414	0
414	120.6
415	23.4
416	127.3
417	30.1
417	177.6
418	80.4
419	184.3
420	87.1
421	3.4
421	137.3
422	40.2
423	144.1
424	46.9
424	186
425	97.2
426	3.3
427	103.8
428	10.1
428	154.1
429	57
430	160.8
431	60.3
431	190.1
432	107.2
433	6.7
434	107.2
435	10.1
435	154.1
436	53.6
437	154.1
438	53.6
438	187.6
439	100.5
440	3.2
441	100.5
442	6.7
442	147.4
443	46.9
444	147.4
445	46.9
445	186
446	97.2
447	0
448	97.2
449	6.7
449	147.4
450	46.9
451	150.8
452	50.3
452	187.4
453	97.2
454	0
455	97.2
456	6.1
456	144.1
457	43.5
458	144.1
459	43.5
459	184.3
460	90.5
461	190.9
462	90.5
463	3.4
463	137.3
464	36.9
465	137.3
466	36.9
466	180.9
467	83.8
468	184.3
469	83.8
470	1.8
470	130.7
471	30.1
472	130.7
473	30.1
473	177.6
474	77
475	177.6
476	77
477	1
477	127.3
478	30.1
479	130.7
480	30.1
480	177.5
481	77
482	177.6
483	77
484	0.4
484	124
485	23.4
486	124
487	23.4
487	170.8
488	70.3
489	174.2
490	73.7
491	0.4
491	127.3
492	33.5
493	137.3
494	43.5
494	184.3
495	100.5
496	6.7
497	110.5
498	16.8
498	167.5
499	73.7
500	177.6
501	83.8
502	3.4
502	140.7
503	43.6
504	150.8
505	57
505	188.6
506	113.9
507	20.1
508	124
509	30.1
509	177.6
510	87.1
511	189.8
512	97.2
513	8.6
513	154.1
514	60.3
515	164.2
516	70.3
517	0.4
517	127.3
518	33.5
519	137.3
520	43.5
520	184.3
521	100.5
522	6.7
523	110.5
524	16.8
524	167.5
525	77
526	180.9
527	87.1
528	4.6
528	144.1
529	53.6
530	160.8
531	70.3
532	1
532	130.7
533	40.2
534	147.4
535	57
535	188.5
536	117.3
537	26.8
538	134
539	43.5
539	184.3
540	103.8
541	13.4
542	117.3
543	23.4
543	174.2
544	80.4
545	184.3
546	90.5
547	6.1
547	147.4
548	53.6
549	157.4
550	63.6
550	188.6
551	120.6
552	26.8
553	130.7
554	36.9
554	180.9
555	93.8
556	2.9
557	103.8
558	12.6
558	160.8
559	67
560	170.8
561	77
562	1.8
562	134
563	40.2
564	144.1
565	53.6
565	186.7
566	110.5
567	16.8
568	120.6
569	26.8
569	176.9
570	87.1
571	188.5
572	100.5
573	10.1
573	157.4
574	63.6
575	167.5
576	73.7
577	1
577	130.7
578	36.9
579	140.7
580	46.9
580	184.3
581	103.8
582	10.1
583	113.9
584	20.1
584	170.8
585	77
586	180.9
587	87.1
588	4.6
588	144.1
589	50.3
590	154.1
591	60.3
591	187.6
592	117.3
593	23.4
594	127.3
595	33.5
595	179.6
596	90.5
597	0
598	100.5
599	10.1
599	157.4
600	63.6
601	167.5
602	73.7
603	1
603	130.7
604	36.9
605	140.7
606	46.9
606	183.9
607	103.8
608	10.1
609	113.9
610	20.1
610	170.8
611	77
612	180.9
613	87.1
614	4.6
614	144.1
615	50.3
616	154.1
617	60.3
617	187.3
618	117.3
619	26.8
620	130.7
621	36.9
621	179.5
622	97.2
623	10.1
624	117.3
625	30.1
625	177.6
626	97.2
627	10.1
628	117.3
629	30.1
629	177.6
630	97.2
631	10.1
632	117.3
633	30.1
633	177.5
634	97.2
635	10.1
636	117.3
637	30.1
637	177.6
638	97.2
639	10.1
640	117.3
641	30.1
641	177.6
642	97.2
643	10.1
644	117.3
645	30.1
645	177.6
646	97.2
647	10.1
648	117.3
649	30.1
649	177.6
650	97.2
651	10.1
652	117.3
653	30.1
653	177.6
654	97.2
655	10.1
656	117.3
657	30.1
657	177.6
658	97.2
659	10.1
660	117.3
661	30.1
661	177.6
662	97.2
663	10.1
664	117.3
665	30.1
665	177.6
666	97.2
667	13.4
668	120.6
669	33.5
669	179.4
670	103.8
671	20.1
672	130.7
673	46.9
673	184.3
674	117.3
675	33.5
676	144.1
677	60.3
678	0.4
678	130.7
679	46.9
680	157.4
681	73.7
682	3.4
682	144.1
683	57
684	164.2
685	80.4
686	4.6
686	147.4
687	63.6
688	174.2
689	87.1
690	6.7
690	154.1
691	67
692	174.2
693	87.1
694	6.7
694	154.1
695	67
696	174.2
697	87.1
698	6.7
698	154.1
699	67
700	174.2
701	87.1
702	6.7
702	154.1
703	67
704	174.2
705	87.1
706	6.7
706	154.1
707	67
708	174.2
709	87.1
710	6.7
710	154.1
711	67
712	174.2
713	87.1
714	6.7
714	154.1
715	67
716	177.6
717	93.8
718	10.1
718	160.8
719	73.7
720	180.9
721	93.8
722	10.1
722	160.8
723	73.7
724	180.9
725	93.8
726	10.1
726	160.8
727	73.7
728	180.9
729	93.8
730	10.1
730	160.8
731	73.7
732	180.9
733	93.8
734	10.1
734	160.8
735	73.7
736	180.9
737	93.8
738	10.1
738	160.8
739	73.7
740	180.9
741	93.8
742	10.1
742	160.8
743	73.7
744	180.9
745	93.8
746	10.1
746	160.8
747	73.7
748	180.9
749	93.8
750	10.1
750	160.8
751	77
752	184.1
753	97.2
754	12.6
754	164.2
755	77
756	184.1
757	97.2
758	12.6
758	164.2
759	77
760	184.1
761	97.2
762	12.6
762	164.2
763	77
764	184.3
765	100.5
766	12.6
766	164.2
767	80.4
768	2.7
769	107.2
770	20.1
770	170.8
771	87.1
772	2.7
773	107.2
774	20.1
774	170.8
775	87.1
776	2.7
777	107.2
778	20.1
778	170.8
779	93.8
780	13.4
781	124
782	43.5
782	182
783	120.6
784	40.2
785	150.8
786	70.3
787	3.4
787	147.4
788	67
789	177.6
790	97.2
791	16.8
791	170.8
792	93.8
793	13.4
794	124
795	43.5
795	182
796	120.6
797	40.2
798	150.8
799	70.3
800	3.4
800	147.4
801	67
802	177.6
803	97.2
804	16.8
804	170.8
805	93.8
806	13.4
807	124
808	43.5
808	181.9
809	120.6
810	40.2
811	150.8
812	70.3
813	3.4
813	147.4
814	67
815	177.6
816	97.2
817	16.8
817	170.8
818	93.8
819	13.4
820	124
821	43.5
821	181.9
822	120.6
823	40.2
824	150.8
825	70.3
826	3.4
826	147.4
827	67
828	177.6
829	97.2
830	16.8
830	170.8
831	93.8
832	16.8
833	130.7
834	53.6
835	0.4
835	134
836	57
837	170.8
838	93.8
839	16.8
839	170.8
840	97.2
841	20.1
842	134
843	57
844	1
844	137.3
845	60.3
846	174.2
847	97.2
848	20.1
848	173.1
849	100.5
850	20.1
851	130.7
852	50.3
852	182.2
853	127.3
854	46.9
855	157.4
856	77
857	6.1
857	154.1
858	73.7
859	182.1
860	103.8
861	23.4
861	174.2
862	100.5
863	20.1
864	130.7
865	50.3
865	181.9
866	127.3
867	46.9
868	157.4
869	77
870	6.1
870	154.1
871	73.7
872	181.8
873	107.2
874	30.1
874	177.4
875	110.5
876	30.1
877	144.1
878	63.6
879	1.7
879	140.7
880	60.3
881	170.8
882	90.5
883	12.6
883	167.5
884	87.1
885	6.7
886	117.3
887	36.9
887	178.8
888	113.9
889	33.5
890	144.1
891	63.6
892	1.7
892	140.7
893	60.3
894	170.8
895	90.5
896	12.6
896	167.5
897	87.1
898	6.7
899	117.3
900	36.9
900	178.7
901	113.9
902	30.1
903	140.7
904	60.3
905	1
905	137.3
906	57
907	167.5
908	83.8
909	8.6
909	160.8
910	80.4
911	2.7
912	110.5
913	30.1
913	175.8
914	107.2
915	26.8
916	137.3
917	57
918	0.4
918	134
919	53.6
920	164.2
921	83.8
922	8.6
922	160.8
923	80.4
924	2.7
925	110.5
926	30.1
926	175.8
927	107.2
928	26.8
929	140.7
930	63.6
931	3.4
931	150.8
932	77
933	3.4
934	117.3
935	43.5
935	180.5
936	130.7
937	57
938	170.8
939	97.2
940	23.4
940	174.2
941	110.5
942	36.9
943	150.8
944	77
945	8.6
945	164.2
946	90.5
947	16.8
948	130.7
949	57
950	1.7
950	144.1
951	70.3
952	0
953	110.5
954	36.9
954	178.6
955	123.9
956	50.3
957	164.2
958	90.5
959	16.8
959	170.8
960	103.8
961	30.1
962	144.1
963	70.3
964	6.1
964	157.4
965	83.8
966	10.1
967	124
968	50.3
969	0.4
969	137.3
970	63.6
971	177.6
972	103.8
973	30.1
973	176.9
974	117.3
975	43.5
976	157.4
977	83.8
978	12.6
978	167.5
979	100.5
980	26.8
981	140.7
982	67
983	6.1
983	157.4
984	87.1
985	16.8
986	134
987	63.6
988	4.6
988	154.1
989	83.8
990	13.4
991	130.7
992	60.3
993	3.4
993	150.8
994	80.4
995	10.1
996	127.3
997	57
998	2.7
998	147.4
999	77
1000	6.7
1001	124
1002	50.3
1003	0.4
1003	137.3
1004	60.3
1005	174.2
1006	100.5
1007	26.8
1007	174.2
1008	113.9
1009	40.2
1010	154.1
1011	80.4
1012	10.1
1012	166.9
1013	93.8
1014	20.1
1015	134
1016	60.3
1017	2.6
1017	147.4
1018	73.7
1019	2.6
1020	117.3
1021	46.9
1022	0.4
1022	137.3
1023	67
1024	178.2
1025	110.5
1026	36.9
1026	177.5
1027	124
1028	50.3
1029	164.2
1030	90.5
1031	16.8
1031	170.8
1032	103.8
1033	30.1
1034	144.1
1035	70.3
1036	6.1
1036	157.4
1037	83.8
1038	10.1
1039	124
1040	50.3
1041	0.4
1041	137.3
1042	63.6
1043	177.4
1044	103.8
1045	30.1
1045	175.4
1046	117.3
1047	43.5
1048	157.4
1049	83.8
1050	12.6
1050	167.5
1051	97.2
1052	23.4
1053	137.3
1054	63.6
1055	3.4
1055	150.8
1056	77
1057	3.4
1058	117.3
1059	43.5
1059	177.7
1060	130.7
1061	57
1062	170.8
1063	97.2
1064	20.1
1064	170.8
1065	107.2
1066	33.5
1067	147.4
1068	73.7
1069	6.7
1069	160.8
1070	87.1
1071	13.4
1072	127.3
1073	53.6
1074	1
1074	140.7
1075	67
1076	177.3
1077	107.2
1078	33.5
1078	175.3
1079	120.6
1080	46.9
1081	164.2
1082	90.5
1083	20.1
1083	170.8
1084	110.5
1085	36.9
1086	154.1
1087	87.1
1088	20.1
1088	172.4
1089	117.3
1090	50.3
1091	167.5
1092	100.5
1093	33.5
1093	176.2
1094	130.7
1095	63.6
1096	0
1097	113.9
1098	46.9
1099	1
1099	144.1
1100	77
1101	10.1
1102	127.3
1103	60.3
1104	4.6
1104	157.4
1105	90.5
1106	23.4
1107	140.7
1108	73.7
1109	10.1
1109	166.5
1110	103.8
1111	36.9
1112	154.1
1113	87.1
1114	20.1
1114	172.3
1115	117.3
1116	50.3
1117	167.5
1118	100.5
1119	33.5
1119	176.1
1120	130.7
1121	63.6
1122	0
1123	113.9
1124	46.9
1125	1
1125	144.1
1126	77
1127	10.1
1128	130.7
1129	67
1130	8.6
1130	164.2
1131	103.8
1132	40.2
1133	160.8
1134	97.2
1135	33.5
1135	175.8
1136	134
1137	70.3
1138	6.7
1139	127.3
1140	63.6
1141	6.7
1141	163.7
1142	100.5
1143	36.9
1144	157.4
1145	93.8
1146	30.1
1146	175.1
1147	130.7
1148	63.6
1149	2.6
1150	120.6
1151	53.6
1152	2.6
1152	150.8
1153	83.8
1154	16.8
1155	134
1156	67
1157	6.7
1157	163.6
1158	97.2
1159	30.1
1160	147.4
1161	80.4
1162	13.4
1162	169.3
1163	110.5
1164	43.5
1165	160.8
1166	93.8
1167	26.8
1167	173.3
1168	124
1169	60.3
1170	175
1171	110.5
1172	43.5
1173	0.4
1173	140.7
1174	73.7
1175	10.1
1176	130.7
1177	67
1178	8.6
1178	164.2
1179	103.8
1180	40.2
1181	160.8
1181	87.8